Folder: PolySAS-D2O/data

Note: data/F127_25C_D2O-SANS data.txt
# SANS data: Pluronic F127 micelle in D2O at 25C
# Columns: q (A^-1), I(q) (cm^-1), Error
0.0005    150.0    1.5
0.0008    120.5    1.2
0.0010    95.2     0.95
0.0012    75.8     0.76
0.0015    60.3     0.60
0.0020    45.1     0.45
0.0025    32.4     0.32
0.0030    24.7     0.25
0.0035    18.9     0.19
0.0040    14.6     0.15
0.0050    9.2      0.09
0.0060    5.8      0.06
0.0070    3.7      0.04
0.0080    2.4      0.02
0.0090    1.6      0.02
0.0100   1.1      0.01
0.0120   0.65     0.01
0.0150   0.38     0.004
0.0200   0.22     0.002
0.0250   0.14     0.001
0.0300   0.09     0.001

Note: data/PEG_PDLLA_vesicle_D2O-SANS data.txt
# SANS data: PEG2k-PDLLA4k vesicle in D2O
# Columns: q (A^-1), I(q) (cm^-1), Error
0.0004    300.8    3.0
0.0007    240.3    2.4
0.0010    192.1    1.9
0.0013    153.2    1.5
0.0017    122.0    1.2
0.0021    97.5     0.98
0.0026    72.8     0.73
0.0032    55.4     0.55
0.0040    42.1     0.42
0.0050    31.8     0.32
0.0062    22.4     0.22
0.0075    16.0     0.16
0.0090    11.2     0.11
0.0110   7.8      0.08
0.0130   5.4      0.05
0.0160   3.5      0.04
0.0200   2.2      0.02
0.0250   1.4      0.01
0.0310   0.92     0.009
0.0380   0.58     0.006
0.0450   0.37     0.004
0.0500   0.25     0.003

Note: README.md
# PolySAS-D2O
Automated SasView pipeline for polymer nanoparticles in Dâ‚‚O

File: PEG_PLA_micelle_D2O-SANS data.txt
# SANS data: PEG5k-PLA3k micelle in D2O
# Columns: q (A^-1), I(q) (cm^-1), Error
0.0006    200.5    2.0
0.0009    160.2    1.6
0.0011    128.7    1.3
0.0014    102.4    1.0
0.0018    81.6     0.82
0.0022    65.0     0.65
0.0028    48.3     0.48
0.0035    36.2     0.36
0.0042    27.5     0.28
0.0050    21.0     0.21
0.0060    14.8     0.15
0.0070    10.5     0.11
0.0085    7.2      0.07
0.0100   5.0      0.05
0.0120   3.3      0.03
0.0150   2.0      0.02
0.0180   1.3      0.01
0.0220   0.85     0.009
0.0280   0.52     0.005
0.0350   0.32     0.003
0.0400   0.21     0.002